{
  "resourceType": "Bundle",
  "id": "MultipleMedicationDispenseBundle",
  "type": "searchset",
  "entry": [
    {
      "fullUrl": "https://erp-dev.zentral.erp.splitdns.ti-dienste.de/MedicationDispense/160.000.000.000.000.01",
      "resource": {
        "resourceType": "MedicationDispense",
        "id": "160.000.000.000.000.01",
        "meta": {
          "profile": [
            "https://gematik.de/fhir/erp/StructureDefinition/GEM_ERP_PR_MedicationDispense|1.4"
          ]
        },
        "identifier": [
          {
            "system": "https://gematik.de/fhir/erp/NamingSystem/GEM_ERP_NS_PrescriptionId",
            "value": "160.000.000.000.000.01"
          }
        ],
        "status": "completed",
        "subject": {
          "identifier": {
            "system": "http://fhir.de/sid/gkv/kvid-10",
            "value": "X123456789"
          }
        },
        "performer": [
          {
            "actor": {
              "identifier": {
                "system": "https://gematik.de/fhir/sid/telematik-id",
                "value": "3-SMC-B-Testkarte-883110000095957"
              }
            }
          }
        ],
        "whenHandedOver": "2025-09-06",
        "medicationReference": {
          "reference": "urn:uuid:86ce7563-9819-4dfa-9944-d307f7cfec9b"
        }
      },
      "search": {
        "mode": "match"
      }
    },
    {
      "fullUrl": "urn:uuid:86ce7563-9819-4dfa-9944-d307f7cfec9b",
      "resource": {
        "resourceType": "Medication",
        "id": "86ce7563-9819-4dfa-9944-d307f7cfec9b",
        "meta": {
          "profile": [
            "https://gematik.de/fhir/erp/StructureDefinition/GEM_ERP_PR_Medication|1.4"
          ]
        },
        "code": {
          "coding": [
            {
              "system": "http://fhir.de/CodeSystem/ifa/pzn",
              "code": "06313728"
            }
          ]
        }
      },
      "search": {
        "mode": "include"
      }
    },
    {
      "fullUrl": "https://erp-dev.zentral.erp.splitdns.ti-dienste.de/MedicationDispense/160.000.000.000.000.02",
      "resource": {
        "resourceType": "MedicationDispense",
        "id": "160.000.000.000.000.02",
        "meta": {
          "profile": [
            "https://gematik.de/fhir/erp/StructureDefinition/GEM_ERP_PR_MedicationDispense|1.4"
          ]
        },
        "identifier": [
          {
            "system": "https://gematik.de/fhir/erp/NamingSystem/GEM_ERP_NS_PrescriptionId",
            "value": "160.000.000.000.000.02"
          }
        ],
        "status": "completed",
        "subject": {
          "identifier": {
            "system": "http://fhir.de/sid/gkv/kvid-10",
            "value": "X123456789"
          }
        },
        "performer": [
          {
            "actor": {
              "identifier": {
                "system": "https://gematik.de/fhir/sid/telematik-id",
                "value": "3-SMC-B-Testkarte-883110000095957"
              }
            }
          }
        ],
        "whenHandedOver": "2025-09-06",
        "medicationReference": {
          "reference": "urn:uuid:56c61db7-0a94-4b7b-832a-b8ac3752035d"
        }
      },
      "search": {
        "mode": "match"
      }
    },
    {
      "fullUrl": "urn:uuid:56c61db7-0a94-4b7b-832a-b8ac3752035d",
      "resource": {
        "resourceType": "Medication",
        "id": "56c61db7-0a94-4b7b-832a-b8ac3752035d",
        "meta": {
          "profile": [
            "https://gematik.de/fhir/erp/StructureDefinition/GEM_ERP_PR_Medication|1.4"
          ]
        },
        "code": {
          "coding": [
            {
              "system": "http://fhir.de/CodeSystem/ifa/pzn",
              "code": "06313728"
            }
          ]
        }
      },
      "search": {
        "mode": "include"
      }
    }
  ]
}
