{
    "resourceType": "Bundle",
    "id": "11989888-5a17-42e7-b4e1-da4692502f4f",
    "type": "collection",
    "timestamp": "2023-02-23T15:08:32.870+00:00",
    "entry":
    [
        {
            "fullUrl": "https://erp-dev.zentral.erp.splitdns.ti-dienste.de/ChargeItem/200.000.001.206.112.29",
            "resource":
            {
                "resourceType": "ChargeItem",
                "id": "200.000.001.206.112.29",
                "meta":
                {
                    "profile":
                    [
                        "https://gematik.de/fhir/erpchrg/StructureDefinition/GEM_ERPCHRG_PR_ChargeItem|1.0"
                    ]
                },
                "identifier":
                [
                    {
                        "system": "https://gematik.de/fhir/erp/NamingSystem/GEM_ERP_NS_PrescriptionId",
                        "value": "200.000.001.206.112.29"
                    },
                    {
                        "system": "https://gematik.de/fhir/erp/NamingSystem/GEM_ERP_NS_AccessCode",
                        "value": "abd4afed9f3f458114fc3407878213e110f238d1afa919fbed7282abbef68bfd"
                    }
                ],
                "status": "billable",
                "code":
                {
                    "coding":
                    [
                        {
                            "system": "http://terminology.hl7.org/CodeSystem/data-absent-reason",
                            "code": "not-applicable"
                        }
                    ]
                },
                "subject":
                {
                    "identifier":
                    {
                        "system": "http://fhir.de/sid/pkv/kvid-10",
                        "value": "X110465770"
                    }
                },
                "enterer":
                {
                    "identifier":
                    {
                        "system": "https://gematik.de/fhir/sid/telematik-id",
                        "value": "3-SMC-B-Testkarte-883110000116873"
                    }
                },
                "enteredDate": "2023-02-23T15:08:32.699+00:00",
                "supportingInformation":
                [
                    {
                        "reference": "urn:uuid:c8606712-0000-0000-0001-000000000000",
                        "display": "https://fhir.kbv.de/StructureDefinition/KBV_PR_ERP_Bundle"
                    },
                    {
                        "reference": "urn:uuid:c8606712-0000-0000-0004-000000000000",
                        "display": "http://fhir.abda.de/eRezeptAbgabedaten/StructureDefinition/DAV-PKV-PR-ERP-AbgabedatenBundle"
                    },
                    {
                        "reference": "urn:uuid:c8606712-0000-0000-0003-000000000000",
                        "display": "https://gematik.de/fhir/erp/StructureDefinition/GEM_ERP_PR_Bundle"
                    }
                ]
            }
        },
        {
            "fullUrl": "urn:uuid:c8606712-0000-0000-0004-000000000000",
            "resource":
            {
                "resourceType": "Bundle",
                "identifier":
                {
                    "system": "https://gematik.de/fhir/erp/NamingSystem/GEM_ERP_NS_PrescriptionId",
                    "value": "200.000.001.206.112.29"
                },
                "timestamp": "2023-07-03T11:30:00Z",
                "type": "document",
                "meta":
                {
                    "profile":
                    [
                        "http://fhir.abda.de/eRezeptAbgabedaten/StructureDefinition/DAV-PKV-PR-ERP-AbgabedatenBundle|1.2"
                    ],
                    "tag":
                    [
                        {
                            "display": "Beispiel RezeptAbgabedatenPKV Bundle (PZN-1)"
                        },
                        {
                            "display": "ACHTUNG! Der fachlich korrekte Inhalt der Beispielinstanz kann nicht gewährleistet werden. Wir sind jederzeit dankbar für Hinweise auf Fehler oder für Verbesserungsvorschläge."
                        }
                    ]
                },
                "id": "6d240a29-144f-477b-b8e7-92d4b4bcebfd",
                "entry":
                [
                    {
                        "fullUrl": "urn:uuid:0877a6ac-9433-43b2-bcd5-46046479c306",
                        "resource":
                        {
                            "author":
                            [
                                {
                                    "reference": "urn:uuid:b998a7cd-f582-4a23-b86a-58e22402d105"
                                }
                            ],
                            "type":
                            {
                                "coding":
                                [
                                    {
                                        "system": "http://fhir.abda.de/eRezeptAbgabedaten/CodeSystem/DAV-CS-ERP-CompositionTypes",
                                        "code": "ERezeptAbgabedaten"
                                    }
                                ]
                            },
                            "title": "ERezeptAbgabedaten",
                            "id": "0877a6ac-9433-43b2-bcd5-46046479c306",
                            "resourceType": "Composition",
                            "status": "final",
                            "date": "2023-07-03T11:30:00Z",
                            "meta":
                            {
                                "profile":
                                [
                                    "http://fhir.abda.de/eRezeptAbgabedaten/StructureDefinition/DAV-PKV-PR-ERP-AbgabedatenComposition|1.2"
                                ]
                            },
                            "section":
                            [
                                {
                                    "title": "Abgabeinformationen",
                                    "entry":
                                    [
                                        {
                                            "reference": "urn:uuid:7b1e6c94-71fb-4bbe-9c5a-2e865efd8526"
                                        }
                                    ]
                                },
                                {
                                    "title": "Apotheke",
                                    "entry":
                                    [
                                        {
                                            "reference": "urn:uuid:b998a7cd-f582-4a23-b86a-58e22402d105"
                                        }
                                    ]
                                }
                            ]
                        }
                    },
                    {
                        "fullUrl": "urn:uuid:b998a7cd-f582-4a23-b86a-58e22402d105",
                        "resource":
                        {
                            "name": "Adler-Apotheke",
                            "identifier":
                            [
                                {
                                    "system": "http://fhir.de/sid/arge-ik/iknr",
                                    "value": "308412345"
                                }
                            ],
                            "meta":
                            {
                                "profile":
                                [
                                    "http://fhir.abda.de/eRezeptAbgabedaten/StructureDefinition/DAV-PKV-PR-ERP-Apotheke|1.2"
                                ]
                            },
                            "id": "b998a7cd-f582-4a23-b86a-58e22402d105",
                            "address":
                            [
                                {
                                    "_line":
                                    [
                                        {
                                            "extension":
                                            [
                                                {
                                                    "valueString": "Taunusstraße",
                                                    "url": "http://hl7.org/fhir/StructureDefinition/iso21090-ADXP-streetName"
                                                },
                                                {
                                                    "valueString": "89",
                                                    "url": "http://hl7.org/fhir/StructureDefinition/iso21090-ADXP-houseNumber"
                                                }
                                            ]
                                        }
                                    ],
                                    "type": "physical",
                                    "city": "Langen",
                                    "line":
                                    [
                                        "Taunusstraße 89"
                                    ],
                                    "country": "D",
                                    "postalCode": "63225"
                                }
                            ],
                            "resourceType": "Organization"
                        }
                    },
                    {
                        "fullUrl": "urn:uuid:7b1e6c94-71fb-4bbe-9c5a-2e865efd8526",
                        "resource":
                        {
                            "type":
                            {
                                "coding":
                                [
                                    {
                                        "system": "http://fhir.abda.de/eRezeptAbgabedaten/CodeSystem/DAV-CS-ERP-MedicationDispenseTyp",
                                        "code": "Abgabeinformationen"
                                    }
                                ]
                            },
                            "id": "7b1e6c94-71fb-4bbe-9c5a-2e865efd8526",
                            "resourceType": "MedicationDispense",
                            "performer":
                            [
                                {
                                    "actor":
                                    {
                                        "reference": "urn:uuid:b998a7cd-f582-4a23-b86a-58e22402d105"
                                    }
                                }
                            ],
                            "status": "completed",
                            "extension":
                            [
                                {
                                    "valueReference":
                                    {
                                        "reference": "urn:uuid:da94b6d8-f853-48b9-b101-be9280b81a71"
                                    },
                                    "url": "http://fhir.abda.de/eRezeptAbgabedaten/StructureDefinition/DAV-EX-ERP-Abrechnungszeilen"
                                },
                                {
                                    "valueCodeableConcept":
                                    {
                                        "coding":
                                        [
                                            {
                                                "system": "http://fhir.abda.de/eRezeptAbgabedaten/CodeSystem/DAV-PKV-CS-ERP-AbrechnungsTyp",
                                                "code": "1"
                                            }
                                        ]
                                    },
                                    "url": "http://fhir.abda.de/eRezeptAbgabedaten/StructureDefinition/DAV-PKV-EX-ERP-AbrechnungsTyp"
                                }
                            ],
                            "medicationCodeableConcept":
                            {
                                "coding":
                                [
                                    {
                                        "system": "http://terminology.hl7.org/CodeSystem/data-absent-reason",
                                        "code": "not-applicable"
                                    }
                                ]
                            },
                            "meta":
                            {
                                "profile":
                                [
                                    "http://fhir.abda.de/eRezeptAbgabedaten/StructureDefinition/DAV-PKV-PR-ERP-Abgabeinformationen|1.2"
                                ]
                            },
                            "whenHandedOver": "2023-07-03",
                            "authorizingPrescription":
                            [
                                {
                                    "identifier":
                                    {
                                        "system": "https://gematik.de/fhir/erp/NamingSystem/GEM_ERP_NS_PrescriptionId",
                                        "value": "200.000.001.206.112.29"
                                    }
                                }
                            ]
                        }
                    },
                    {
                        "fullUrl": "urn:uuid:da94b6d8-f853-48b9-b101-be9280b81a71",
                        "resource":
                        {
                            "status": "issued",
                            "totalGross":
                            {
                                "value": 21.039999999999999,
                                "extension":
                                [
                                    {
                                        "valueMoney":
                                        {
                                            "value": 0.00,
                                            "currency": "EUR"
                                        },
                                        "url": "http://fhir.abda.de/eRezeptAbgabedaten/StructureDefinition/DAV-EX-ERP-Gesamtzuzahlung"
                                    }
                                ],
                                "currency": "EUR"
                            },
                            "type":
                            {
                                "coding":
                                [
                                    {
                                        "system": "http://fhir.abda.de/eRezeptAbgabedaten/CodeSystem/DAV-CS-ERP-InvoiceTyp",
                                        "code": "Abrechnungszeilen"
                                    }
                                ]
                            },
                            "meta":
                            {
                                "profile":
                                [
                                    "http://fhir.abda.de/eRezeptAbgabedaten/StructureDefinition/DAV-PKV-PR-ERP-Abrechnungszeilen|1.2"
                                ]
                            },
                            "id": "da94b6d8-f853-48b9-b101-be9280b81a71",
                            "lineItem":
                            [
                                {
                                    "priceComponent":
                                    [
                                        {
                                            "amount":
                                            {
                                                "value": 21.039999999999999,
                                                "currency": "EUR"
                                            },
                                            "factor": 1,
                                            "extension":
                                            [
                                                {
                                                    "valueDecimal": 19.00,
                                                    "url": "http://fhir.abda.de/eRezeptAbgabedaten/StructureDefinition/DAV-EX-ERP-MwStSatz"
                                                },
                                                {
                                                    "extension":
                                                    [
                                                        {
                                                            "valueCodeableConcept":
                                                            {
                                                                "coding":
                                                                [
                                                                    {
                                                                        "system": "http://fhir.abda.de/eRezeptAbgabedaten/CodeSystem/DAV-PKV-CS-ERP-KostenVersicherterKategorie",
                                                                        "code": "0"
                                                                    }
                                                                ]
                                                            },
                                                            "url": "Kategorie"
                                                        },
                                                        {
                                                            "valueMoney":
                                                            {
                                                                "value": 0.00,
                                                                "currency": "EUR"
                                                            },
                                                            "url": "Kostenbetrag"
                                                        }
                                                    ],
                                                    "url": "http://fhir.abda.de/eRezeptAbgabedaten/StructureDefinition/DAV-EX-ERP-KostenVersicherter"
                                                }
                                            ],
                                            "type": "informational"
                                        }
                                    ],
                                    "chargeItemCodeableConcept":
                                    {
                                        "text": "BELOC-ZOK mite 47,5 mg Retardtabletten 30 St",
                                        "coding":
                                        [
                                            {
                                                "system": "http://fhir.de/CodeSystem/ifa/pzn",
                                                "code": "03879429"
                                            }, {
                                                "system": "http://TA1.abda.de",
                                                "code": "84256543"
                                            }, {
                                                "system": "http://fhir.de/sid/gkv/hmnr",
                                                "code": "85258976"
                                            }
                                        ]
                                    },
                                    "sequence": 1
                                }
                            ],
                            "resourceType": "Invoice"
                        }
                    }
                ],
                "signature":
                {
                    "type":
                    [
                        {
                            "system": "urn:iso-astm:E1762-95:2013",
                            "code": "1.2.840.10065.1.12.1.1"
                        }
                    ],
                    "when": "2023-02-17T14:07:47.809+00:00",
                    "who":
                    {
                        "reference": "https://erp-dev.zentral.erp.splitdns.ti-dienste.de/Device/1"
                    },
                    "sigFormat": "application/pkcs7-mime",
                    "data": "aOEsSfDw=="
                }
            }
        },
        {
            "fullUrl": "urn:uuid:c8606712-0000-0000-0001-000000000000",
            "resource":
            {
                "resourceType": "Bundle",
                "id": "96a3cbd7-0ff3-46e3-8d6e-565905be5f4c",
                "meta":
                {
                    "lastUpdated": "2023-02-23T16:08:26.495+01:00",
                    "profile":
                    [
                        "https://fhir.kbv.de/StructureDefinition/KBV_PR_ERP_Bundle|1.1.0"
                    ]
                },
                "identifier":
                {
                    "system": "https://gematik.de/fhir/erp/NamingSystem/GEM_ERP_NS_PrescriptionId",
                    "value": "200.000.001.206.112.29"
                },
                "type": "document",
                "timestamp": "2023-02-23T16:08:26.495+01:00",
                "entry":
                [
                    {
                        "fullUrl": "https://pvs.gematik.de/fhir/Composition/980f2b7b-4300-4b5b-990b-0c6ad3b111fd",
                        "resource":
                        {
                            "resourceType": "Composition",
                            "id": "980f2b7b-4300-4b5b-990b-0c6ad3b111fd",
                            "meta":
                            {
                                "profile":
                                [
                                    "https://fhir.kbv.de/StructureDefinition/KBV_PR_ERP_Composition|1.1.0"
                                ]
                            },
                            "extension":
                            [
                                {
                                    "url": "https://fhir.kbv.de/StructureDefinition/KBV_EX_FOR_PKV_Tariff",
                                    "valueCoding":
                                    {
                                        "system": "https://fhir.kbv.de/CodeSystem/KBV_CS_SFHIR_KBV_PKV_TARIFF",
                                        "code": "03"
                                    }
                                },
                                {
                                    "url": "https://fhir.kbv.de/StructureDefinition/KBV_EX_FOR_Legal_basis",
                                    "valueCoding":
                                    {
                                        "system": "https://fhir.kbv.de/CodeSystem/KBV_CS_SFHIR_KBV_STATUSKENNZEICHEN",
                                        "code": "00"
                                    }
                                }
                            ],
                            "status": "final",
                            "type":
                            {
                                "coding":
                                [
                                    {
                                        "system": "https://fhir.kbv.de/CodeSystem/KBV_CS_SFHIR_KBV_FORMULAR_ART",
                                        "code": "e16A"
                                    }
                                ]
                            },
                            "subject":
                            {
                                "reference": "Patient/70036944-4464-4e9b-b9c7-7ae6c705dfc4"
                            },
                            "date": "2023-02-23T16:08:26+01:00",
                            "author":
                            [
                                {
                                    "reference": "Practitioner/9f0174a5-2aed-44de-ab7b-b3cf6eccfc04",
                                    "type": "Practitioner"
                                },
                                {
                                    "type": "Device",
                                    "identifier":
                                    {
                                        "system": "https://fhir.kbv.de/NamingSystem/KBV_NS_FOR_Pruefnummer",
                                        "value": "GEMATIK/410/2109/36/123"
                                    }
                                }
                            ],
                            "title": "elektronische Arzneimittelverordnung",
                            "custodian":
                            {
                                "reference": "Organization/7c8c55ae-e7ca-4a1b-baad-f251141ced40"
                            },
                            "section":
                            [
                                {
                                    "code":
                                    {
                                        "coding":
                                        [
                                            {
                                                "system": "https://fhir.kbv.de/CodeSystem/KBV_CS_ERP_Section_Type",
                                                "code": "Coverage"
                                            }
                                        ]
                                    },
                                    "entry":
                                    [
                                        {
                                            "reference": "Coverage/5b40cc79-973e-40cc-889e-0bb2ce044168"
                                        }
                                    ]
                                },
                                {
                                    "code":
                                    {
                                        "coding":
                                        [
                                            {
                                                "system": "https://fhir.kbv.de/CodeSystem/KBV_CS_ERP_Section_Type",
                                                "code": "Prescription"
                                            }
                                        ]
                                    },
                                    "entry":
                                    [
                                        {
                                            "reference": "MedicationRequest/d0b75425-1905-4bb0-9f25-cdb7c25cc026"
                                        }
                                    ]
                                }
                            ]
                        }
                    },
                    {
                        "fullUrl": "https://pvs.gematik.de/fhir/MedicationRequest/d0b75425-1905-4bb0-9f25-cdb7c25cc026",
                        "resource":
                        {
                            "resourceType": "MedicationRequest",
                            "id": "d0b75425-1905-4bb0-9f25-cdb7c25cc026",
                            "meta":
                            {
                                "profile":
                                [
                                    "https://fhir.kbv.de/StructureDefinition/KBV_PR_ERP_Prescription|1.1.0"
                                ]
                            },
                            "extension":
                            [
                                {
                                    "url": "https://fhir.kbv.de/StructureDefinition/KBV_EX_ERP_BVG",
                                    "valueBoolean": false
                                },
                                {
                                    "url": "https://fhir.kbv.de/StructureDefinition/KBV_EX_ERP_EmergencyServicesFee",
                                    "valueBoolean": false
                                },
                                {
                                    "url": "https://fhir.kbv.de/StructureDefinition/KBV_EX_ERP_Multiple_Prescription",
                                    "extension":
                                    [
                                        {
                                            "url": "Kennzeichen",
                                            "valueBoolean": false
                                        }
                                    ]
                                },
                                {
                                    "url": "https://fhir.kbv.de/StructureDefinition/KBV_EX_FOR_StatusCoPayment",
                                    "valueCoding":
                                    {
                                        "system": "https://fhir.kbv.de/CodeSystem/KBV_CS_FOR_StatusCoPayment",
                                        "code": "0"
                                    }
                                }
                            ],
                            "status": "active",
                            "intent": "order",
                            "medicationReference":
                            {
                                "reference": "Medication/a5353966-08e0-4c70-a063-c4a3429967f7"
                            },
                            "subject":
                            {
                                "reference": "Patient/70036944-4464-4e9b-b9c7-7ae6c705dfc4"
                            },
                            "authoredOn": "2023-02-23",
                            "requester":
                            {
                                "reference": "Practitioner/9f0174a5-2aed-44de-ab7b-b3cf6eccfc04"
                            },
                            "insurance":
                            [
                                {
                                    "reference": "Coverage/5b40cc79-973e-40cc-889e-0bb2ce044168"
                                }
                            ],
                            "dosageInstruction":
                            [
                                {
                                    "extension":
                                    [
                                        {
                                            "url": "https://fhir.kbv.de/StructureDefinition/KBV_EX_ERP_DosageFlag",
                                            "valueBoolean": true
                                        }
                                    ],
                                    "text": "1-0-0-0"
                                }
                            ],
                            "dispenseRequest":
                            {
                                "quantity":
                                {
                                    "value": 1,
                                    "system": "http://unitsofmeasure.org",
                                    "code": "{Package}"
                                }
                            },
                            "substitution":
                            {
                                "allowedBoolean": true
                            }
                        }
                    },
                    {
                        "fullUrl": "https://pvs.gematik.de/fhir/Medication/a5353966-08e0-4c70-a063-c4a3429967f7",
                        "resource":
                        {
                            "resourceType": "Medication",
                            "id": "a5353966-08e0-4c70-a063-c4a3429967f7",
                            "meta":
                            {
                                "profile":
                                [
                                    "https://fhir.kbv.de/StructureDefinition/KBV_PR_ERP_Medication_PZN|1.1.0"
                                ]
                            },
                            "extension":
                            [
                                {
                                    "url": "https://fhir.kbv.de/StructureDefinition/KBV_EX_Base_Medication_Type",
                                    "valueCodeableConcept":
                                    {
                                        "coding":
                                        [
                                            {
                                                "system": "http://snomed.info/sct",
                                                "version": "http://snomed.info/sct/900000000000207008/version/20220331",
                                                "code": "763158003",
                                                "display": "Medicinal product (product)"
                                            }
                                        ]
                                    }
                                },
                                {
                                    "url": "https://fhir.kbv.de/StructureDefinition/KBV_EX_ERP_Medication_Category",
                                    "valueCoding":
                                    {
                                        "system": "https://fhir.kbv.de/CodeSystem/KBV_CS_ERP_Medication_Category",
                                        "code": "00"
                                    }
                                },
                                {
                                    "url": "https://fhir.kbv.de/StructureDefinition/KBV_EX_ERP_Medication_Vaccine",
                                    "valueBoolean": false
                                },
                                {
                                    "url": "http://fhir.de/StructureDefinition/normgroesse",
                                    "valueCode": "NB"
                                }
                            ],
                            "code":
                            {
                                "coding":
                                [
                                    {
                                        "system": "http://fhir.de/CodeSystem/ifa/pzn",
                                        "code": "15222136"
                                    }
                                ],
                                "text": "Schmerzmittel"
                            },
                            "form":
                            {
                                "coding":
                                [
                                    {
                                        "system": "https://fhir.kbv.de/CodeSystem/KBV_CS_SFHIR_KBV_DARREICHUNGSFORM",
                                        "code": "TAB"
                                    }
                                ]
                            },
                            "amount":
                            {
                                "numerator":
                                {
                                    "extension":
                                    [
                                        {
                                            "url": "https://fhir.kbv.de/StructureDefinition/KBV_EX_ERP_Medication_PackagingSize",
                                            "valueString": "1"
                                        }
                                    ],
                                    "unit": "Stk"
                                },
                                "denominator":
                                {
                                    "value": 1
                                }
                            }
                        }
                    },
                    {
                        "fullUrl": "https://pvs.gematik.de/fhir/Patient/70036944-4464-4e9b-b9c7-7ae6c705dfc4",
                        "resource":
                        {
                            "resourceType": "Patient",
                            "id": "70036944-4464-4e9b-b9c7-7ae6c705dfc4",
                            "meta":
                            {
                                "profile":
                                [
                                    "https://fhir.kbv.de/StructureDefinition/KBV_PR_FOR_Patient|1.1.0"
                                ]
                            },
                            "identifier":
                            [
                                {
                                    "type":
                                    {
                                        "coding":
                                        [
                                            {
                                                "system": "http://fhir.de/CodeSystem/identifier-type-de-basis",
                                                "code": "PKV"
                                            }
                                        ]
                                    },
                                    "system": "http://fhir.de/sid/pkv/kvid-10",
                                    "value": "X110465770"
                                }
                            ],
                            "name":
                            [
                                {
                                    "use": "official",
                                    "family": "Angermänn",
                                    "_family":
                                    {
                                        "extension":
                                        [
                                            {
                                                "url": "http://hl7.org/fhir/StructureDefinition/humanname-own-name",
                                                "valueString": "Angermänn"
                                            }
                                        ]
                                    },
                                    "given":
                                    [
                                        "Günther"
                                    ]
                                }
                            ],
                            "birthDate": "1964-03-10",
                            "address":
                            [
                                {
                                    "type": "both",
                                    "line":
                                    [
                                        "Driescher Hecke 56"
                                    ],
                                    "_line":
                                    [
                                        {
                                            "extension":
                                            [
                                                {
                                                    "url": "http://hl7.org/fhir/StructureDefinition/iso21090-ADXP-houseNumber",
                                                    "valueString": "56"
                                                },
                                                {
                                                    "url": "http://hl7.org/fhir/StructureDefinition/iso21090-ADXP-streetName",
                                                    "valueString": "Driescher Hecke"
                                                }
                                            ]
                                        }
                                    ],
                                    "city": "Neu Eladorf",
                                    "postalCode": "67130",
                                    "country": "D"
                                }
                            ]
                        }
                    },
                    {
                        "fullUrl": "https://pvs.gematik.de/fhir/Organization/7c8c55ae-e7ca-4a1b-baad-f251141ced40",
                        "resource":
                        {
                            "resourceType": "Organization",
                            "id": "7c8c55ae-e7ca-4a1b-baad-f251141ced40",
                            "meta":
                            {
                                "profile":
                                [
                                    "https://fhir.kbv.de/StructureDefinition/KBV_PR_FOR_Organization|1.1.0"
                                ]
                            },
                            "identifier":
                            [
                                {
                                    "type":
                                    {
                                        "coding":
                                        [
                                            {
                                                "system": "http://terminology.hl7.org/CodeSystem/v2-0203",
                                                "code": "BSNR"
                                            }
                                        ]
                                    },
                                    "system": "https://fhir.kbv.de/NamingSystem/KBV_NS_Base_BSNR",
                                    "value": "831957093"
                                }
                            ],
                            "name": "Arztpraxis Schraßer",
                            "telecom":
                            [
                                {
                                    "system": "phone",
                                    "value": "+49-720-1828263"
                                },
                                {
                                    "system": "email",
                                    "value": "dina.assmus@apitz.net"
                                }
                            ],
                            "address":
                            [
                                {
                                    "type": "both",
                                    "line":
                                    [
                                        "Rudolf-Mann-Platz 5"
                                    ],
                                    "_line":
                                    [
                                        {
                                            "extension":
                                            [
                                                {
                                                    "url": "http://hl7.org/fhir/StructureDefinition/iso21090-ADXP-houseNumber",
                                                    "valueString": "5"
                                                },
                                                {
                                                    "url": "http://hl7.org/fhir/StructureDefinition/iso21090-ADXP-streetName",
                                                    "valueString": "Rudolf-Mann-Platz"
                                                }
                                            ]
                                        }
                                    ],
                                    "city": "Ceylinburg",
                                    "postalCode": "83852",
                                    "country": "D"
                                }
                            ]
                        }
                    },
                    {
                        "fullUrl": "https://pvs.gematik.de/fhir/Coverage/5b40cc79-973e-40cc-889e-0bb2ce044168",
                        "resource":
                        {
                            "resourceType": "Coverage",
                            "id": "5b40cc79-973e-40cc-889e-0bb2ce044168",
                            "meta":
                            {
                                "profile":
                                [
                                    "https://fhir.kbv.de/StructureDefinition/KBV_PR_FOR_Coverage|1.1.0"
                                ]
                            },
                            "extension":
                            [
                                {
                                    "url": "http://fhir.de/StructureDefinition/gkv/besondere-personengruppe",
                                    "valueCoding":
                                    {
                                        "system": "https://fhir.kbv.de/CodeSystem/KBV_CS_SFHIR_KBV_PERSONENGRUPPE",
                                        "code": "00"
                                    }
                                },
                                {
                                    "url": "http://fhir.de/StructureDefinition/gkv/dmp-kennzeichen",
                                    "valueCoding":
                                    {
                                        "system": "https://fhir.kbv.de/CodeSystem/KBV_CS_SFHIR_KBV_DMP",
                                        "code": "00"
                                    }
                                },
                                {
                                    "url": "http://fhir.de/StructureDefinition/gkv/wop",
                                    "valueCoding":
                                    {
                                        "system": "https://fhir.kbv.de/CodeSystem/KBV_CS_SFHIR_ITA_WOP",
                                        "code": "38"
                                    }
                                },
                                {
                                    "url": "http://fhir.de/StructureDefinition/gkv/versichertenart",
                                    "valueCoding":
                                    {
                                        "system": "https://fhir.kbv.de/CodeSystem/KBV_CS_SFHIR_KBV_VERSICHERTENSTATUS",
                                        "code": "1"
                                    }
                                }
                            ],
                            "status": "active",
                            "type":
                            {
                                "coding":
                                [
                                    {
                                        "system": "http://fhir.de/CodeSystem/versicherungsart-de-basis",
                                        "code": "PKV"
                                    }
                                ]
                            },
                            "beneficiary":
                            {
                                "reference": "Patient/6b725945-05ba-4b79-b880-6b9cd19a8caa"
                            },
                            "payor":
                            [
                                {
                                    "identifier":
                                    {
                                        "system": "http://fhir.de/sid/arge-ik/iknr",
                                        "value": "759428189"
                                    },
                                    "display": "Farmer Pfalz"
                                }
                            ]
                        }
                    },
                    {
                        "fullUrl": "https://pvs.gematik.de/fhir/Practitioner/9f0174a5-2aed-44de-ab7b-b3cf6eccfc04",
                        "resource":
                        {
                            "resourceType": "Practitioner",
                            "id": "9f0174a5-2aed-44de-ab7b-b3cf6eccfc04",
                            "meta":
                            {
                                "profile":
                                [
                                    "https://fhir.kbv.de/StructureDefinition/KBV_PR_FOR_Practitioner|1.1.0"
                                ]
                            },
                            "identifier":
                            [
                                {
                                    "type":
                                    {
                                        "coding":
                                        [
                                            {
                                                "system": "http://terminology.hl7.org/CodeSystem/v2-0203",
                                                "code": "LANR"
                                            }
                                        ]
                                    },
                                    "system": "https://fhir.kbv.de/NamingSystem/KBV_NS_Base_ANR",
                                    "value": "208818254"
                                }
                            ],
                            "name":
                            [
                                {
                                    "use": "official",
                                    "family": "Schraßer",
                                    "_family":
                                    {
                                        "extension":
                                        [
                                            {
                                                "url": "http://hl7.org/fhir/StructureDefinition/humanname-own-name",
                                                "valueString": "Schraßer"
                                            }
                                        ]
                                    },
                                    "given":
                                    [
                                        "Dr."
                                    ],
                                    "prefix":
                                    [
                                        "Dr."
                                    ],
                                    "_prefix":
                                    [
                                        {
                                            "extension":
                                            [
                                                {
                                                    "url": "http://hl7.org/fhir/StructureDefinition/iso21090-EN-qualifier",
                                                    "valueCode": "AC"
                                                }
                                            ]
                                        }
                                    ]
                                }
                            ],
                            "qualification":
                            [
                                {
                                    "code":
                                    {
                                        "coding":
                                        [
                                            {
                                                "system": "https://fhir.kbv.de/CodeSystem/KBV_CS_FOR_Qualification_Type",
                                                "code": "00"
                                            }
                                        ]
                                    }
                                },
                                {
                                    "code":
                                    {
                                        "coding":
                                        [
                                            {
                                                "system": "https://fhir.kbv.de/CodeSystem/KBV_CS_FOR_Berufsbezeichnung",
                                                "code": "Berufsbezeichnung"
                                            }
                                        ],
                                        "text": "Super-Facharzt für alles Mögliche"
                                    }
                                }
                            ]
                        }
                    }
                ],
                "signature":
                {
                    "type":
                    [
                        {
                            "system": "urn:iso-astm:E1762-95:2013",
                            "code": "1.2.840.10065.1.12.1.1"
                        }
                    ],
                    "when": "2023-02-23T15:08:32.983+00:00",
                    "who":
                    {
                        "reference": "https://erp-dev.zentral.erp.splitdns.ti-dienste.de/Device/1"
                    },
                    "sigFormat": "application/pkcs7-mime",
                    "data": ""
                }
            }
        },
        {
            "fullUrl": "urn:uuid:c8606712-0000-0000-0003-000000000000",
            "resource":
            {
                "resourceType": "Bundle",
                "id": "c8606712-0000-0000-0003-000000000000",
                "meta":
                {
                    "profile":
                    [
                        "https://gematik.de/fhir/erp/StructureDefinition/GEM_ERP_PR_Bundle|1.2"
                    ]
                },
                "identifier":
                {
                    "system": "https://gematik.de/fhir/erp/NamingSystem/GEM_ERP_NS_PrescriptionId",
                    "value": "200.000.001.206.112.29"
                },
                "type": "document",
                "timestamp": "2023-02-23T15:08:30.803+00:00",
                "link":
                [
                    {
                        "relation": "self",
                        "url": "https://erp-dev.zentral.erp.splitdns.ti-dienste.de/Task/200.000.001.206.112.29/$close/"
                    }
                ],
                "entry":
                [
                    {
                        "fullUrl": "urn:uuid:1f107ad7-f4bf-47e3-a606-0181f5dd4f73",
                        "resource":
                        {
                            "resourceType": "Composition",
                            "id": "1f107ad7-f4bf-47e3-a606-0181f5dd4f73",
                            "meta":
                            {
                                "profile":
                                [
                                    "https://gematik.de/fhir/erp/StructureDefinition/GEM_ERP_PR_Composition|1.2"
                                ]
                            },
                            "extension":
                            [
                                {
                                    "url": "https://gematik.de/fhir/erp/StructureDefinition/GEM_ERP_EX_Beneficiary",
                                    "valueIdentifier":
                                    {
                                        "system": "https://gematik.de/fhir/sid/telematik-id",
                                        "value": "3-SMC-B-Testkarte-883110000116873"
                                    }
                                }
                            ],
                            "status": "final",
                            "type":
                            {
                                "coding":
                                [
                                    {
                                        "system": "https://gematik.de/fhir/erp/CodeSystem/GEM_ERP_CS_DocumentType",
                                        "code": "3",
                                        "display": "Receipt"
                                    }
                                ]
                            },
                            "date": "2023-02-23T15:08:30.802+00:00",
                            "author":
                            [
                                {
                                    "reference": "https://erp-dev.zentral.erp.splitdns.ti-dienste.de/Device/1"
                                }
                            ],
                            "title": "Quittung",
                            "event":
                            [
                                {
                                    "period":
                                    {
                                        "start": "2023-02-23T15:08:29.843+00:00",
                                        "end": "2023-02-23T15:08:30.802+00:00"
                                    }
                                }
                            ],
                            "section":
                            [
                                {
                                    "entry":
                                    [
                                        {
                                            "reference": "Binary/PrescriptionDigest-200.000.001.206.112.29"
                                        }
                                    ]
                                }
                            ]
                        }
                    },
                    {
                        "fullUrl": "https://erp-dev.zentral.erp.splitdns.ti-dienste.de/Device/1",
                        "resource":
                        {
                            "resourceType": "Device",
                            "id": "1",
                            "meta":
                            {
                                "profile":
                                [
                                    "https://gematik.de/fhir/erp/StructureDefinition/GEM_ERP_PR_Device|1.2"
                                ]
                            },
                            "status": "active",
                            "serialNumber": "1.9.0",
                            "deviceName":
                            [
                                {
                                    "name": "E-Rezept Fachdienst",
                                    "type": "user-friendly-name"
                                }
                            ],
                            "version":
                            [
                                {
                                    "value": "1.9.0"
                                }
                            ],
                            "contact":
                            [
                                {
                                    "system": "email",
                                    "value": "betrieb@gematik.de"
                                }
                            ]
                        }
                    },
                    {
                        "fullUrl": "https://erp-dev.zentral.erp.splitdns.ti-dienste.de/Binary/PrescriptionDigest-200.000.001.206.112.29",
                        "resource":
                        {
                            "resourceType": "Binary",
                            "id": "PrescriptionDigest-200.000.001.206.112.29",
                            "meta":
                            {
                                "versionId": "1",
                                "profile":
                                [
                                    "https://gematik.de/fhir/erp/StructureDefinition/GEM_ERP_PR_Digest|1.2"
                                ]
                            },
                            "contentType": "application/octet-stream",
                            "data": "aYDkjPosw3Sa5dX5EmSghwhVg7d9jhoXHdwszETXV/8="
                        }
                    }
                ],
                "signature":
                {
                    "type":
                    [
                        {
                            "system": "urn:iso-astm:E1762-95:2013",
                            "code": "1.2.840.10065.1.12.1.1"
                        }
                    ],
                    "when": "2023-02-23T15:08:32.985+00:00",
                    "who":
                    {
                        "reference": "https://erp-dev.zentral.erp.splitdns.ti-dienste.de/Device/1"
                    },
                    "sigFormat": "application/pkcs7-mime",
                    "data": ""
                }
            }
        }
    ]
}
