{
    "resourceType": "Bundle",
    "type": "searchset",
    "entry": [
        {
            "resource": {
                "resourceType": "Task",
                "id": "61704e3f-1e4f-11b2-80f4-b806a73c0cd0",
                "meta": {
                    "versionId": "1",
                    "lastUpdated": "2021-03-24T08:35:32.529193496+00:00",
                    "profile": [
                        "https://gematik.de/fhir/StructureDefinition/ErxTask"
                    ]
                },
                "extension": [
                    {
                        "url": "https://gematik.de/fhir/StructureDefinition/PrescriptionType",
                        "valueCoding": {
                            "system": "https://gematik.de/fhir/CodeSystem/Flowtype",
                            "code": "160",
                            "display": "Muster 16 (Apothekenpflichtige Arzneimittel)"
                        }
                    },
                    {
                        "url": "https://gematik.de/fhir/StructureDefinition/AcceptDate",
                        "valueDate": "2021-04-23"
                    },
                    {
                        "url": "https://gematik.de/fhir/StructureDefinition/ExpiryDate",
                        "valueDate": "2021-06-24"
                    }
                ],
                "identifier": [
                    {
                        "system": "https://gematik.de/fhir/NamingSystem/PrescriptionID",
                        "value": "160.000.711.573.200.03"
                    },
                    {
                        "system": "https://gematik.de/fhir/NamingSystem/AccessCode",
                        "value": "7eccd529292631f6a7cd120b57ded23062c35932cc721bfd32b08c5fb188b642"
                    }
                ],
                "status": "ready",
                "intent": "order",
                "for": {
                    "identifier": {
                        "system": "http://fhir.de/NamingSystem/gkv/kvid-10",
                        "value": "X234567890"
                    }
                },
                "authoredOn": "2021-03-24T08:35:32.311370977+00:00",
                "lastModified": "2021-03-24T08:35:32.311376627+00:00",
                "performerType": [
                    {
                        "coding": [
                            {
                                "system": "urn:ietf:rfc:3986",
                                "code": "urn:oid:1.2.276.0.76.4.54",
                                "display": "Öffentliche Apotheke"
                            }
                        ]
                    }
                ],
                "input": [
                    {
                        "type": {
                            "coding": [
                                {
                                    "system": "https://gematik.de/fhir/CodeSystem/Documenttype",
                                    "code": "1",
                                    "display": "Health Care Provider Prescription"
                                }
                            ]
                        },
                        "valueReference": {
                            "reference": "203AFD797E394C63CDD49D3C08F166E5221C5FADA6A473C533443BAA47C500C6"
                        }
                    },
                    {
                        "type": {
                            "coding": [
                                {
                                    "system": "https://gematik.de/fhir/CodeSystem/Documenttype",
                                    "code": "2",
                                    "display": "Patient Confirmation"
                                }
                            ]
                        },
                        "valueReference": {
                            "reference": "619160f7-1e4f-11b2-80f5-b806a73c0cd0"
                        }
                    }
                ]
            }
        },
        {
            "resource": {
                "resourceType": "Bundle",
                "id": "619160f7-1e4f-11b2-80f5-b806a73c0cd0",
                "meta": {
                    "profile": [
                        "https://fhir.kbv.de/StructureDefinition/KBV_PR_ERP_Bundle|1.0.2"
                    ]
                },
                "identifier": {
                    "system": "https://gematik.de/fhir/NamingSystem/PrescriptionID",
                    "value": "160.123.456.789.123.58"
                },
                "type": "document",
                "timestamp": "2020-06-23T08:30:00+00:00",
                "entry": [
                    {
                        "fullUrl": "http://pvs.praxis-topp-gluecklich.local/fhir/Composition/ed52c1e3-b700-4497-ae19-b23744e29876",
                        "resource": {
                            "resourceType": "Composition",
                            "id": "ed52c1e3-b700-4497-ae19-b23744e29876",
                            "meta": {
                                "profile": [
                                    "https://fhir.kbv.de/StructureDefinition/KBV_PR_ERP_Composition|1.0.2"
                                ]
                            },
                            "extension": [
                                {
                                    "url": "https://fhir.kbv.de/StructureDefinition/KBV_EX_FOR_Legal_basis",
                                    "valueCoding": {
                                        "system": "https://fhir.kbv.de/CodeSystem/KBV_CS_SFHIR_KBV_STATUSKENNZEICHEN",
                                        "code": "00"
                                    }
                                },
                                {
                                    "url": "https://fhir.kbv.de/StructureDefinition/KBV_EX_FOR_PKV_Tariff",
                                    "valueCoding": {
                                        "system": "https://fhir.kbv.de/CodeSystem/KBV_CS_SFHIR_KBV_PKV_TARIFF",
                                        "code": "02"
                                    }
                                }
                            ],
                            "status": "final",
                            "type": {
                                "coding": [
                                    {
                                        "system": "https://fhir.kbv.de/CodeSystem/KBV_CS_SFHIR_KBV_FORMULAR_ART",
                                        "code": "e16A"
                                    }
                                ]
                            },
                            "subject": {
                                "reference": "Patient/9774f67f-a238-4daf-b4e6-679deeef3811"
                            },
                            "date": "2020-05-04T08:00:00+00:00",
                            "author": [
                                {
                                    "reference": "Practitioner/20597e0e-cb2a-45b3-95f0-dc3dbdb617c3",
                                    "type": "Practitioner"
                                },
                                {
                                    "type": "Device",
                                    "identifier": {
                                        "system": "https://fhir.kbv.de/NamingSystem/KBV_NS_FOR_Pruefnummer",
                                        "value": "Y/400/1910/36/346"
                                    }
                                }
                            ],
                            "title": "elektronische Arzneimittelverordnung",
                            "custodian": {
                                "reference": "Organization/cf042e44-086a-4d51-9c77-172f9a972e3b"
                            },
                            "section": [
                                {
                                    "code": {
                                        "coding": [
                                            {
                                                "system": "https://fhir.kbv.de/CodeSystem/KBV_CS_ERP_Section_Type",
                                                "code": "Prescription"
                                            }
                                        ]
                                    },
                                    "entry": [
                                        {
                                            "reference": "MedicationRequest/e930cdee-9eb5-4b44-88b5-2a18b69f3b9a"
                                        }
                                    ]
                                },
                                {
                                    "code": {
                                        "coding": [
                                            {
                                                "system": "https://fhir.kbv.de/CodeSystem/KBV_CS_ERP_Section_Type",
                                                "code": "Coverage"
                                            }
                                        ]
                                    },
                                    "entry": [
                                        {
                                            "reference": "Coverage/1b1ffb6e-eb05-43d7-87eb-e7818fe9661a"
                                        }
                                    ]
                                },
                                {
                                    "code": {
                                        "coding": [
                                            {
                                                "system": "https://fhir.kbv.de/CodeSystem/KBV_CS_ERP_Section_Type",
                                                "code": "FOR_PractitionerRole"
                                            }
                                        ]
                                    },
                                    "entry": [
                                        {
                                            "reference": "PractitionerRole/9a4090f8-8c5a-11ea-bc55-0242ac13000"
                                        }
                                    ]
                                }
                            ]
                        }
                    },
                    {
                        "fullUrl": "http://pvs.praxis-topp-gluecklich.local/fhir/MedicationRequest/e930cdee-9eb5-4b44-88b5-2a18b69f3b9a",
                        "resource": {
                            "resourceType": "MedicationRequest",
                            "id": "e930cdee-9eb5-4b44-88b5-2a18b69f3b9a",
                            "meta": {
                                "profile": [
                                    "https://fhir.kbv.de/StructureDefinition/KBV_PR_ERP_Prescription|1.0.2"
                                ]
                            },
                            "extension": [
                                {
                                    "url": "https://fhir.kbv.de/StructureDefinition/KBV_EX_ERP_StatusCoPayment",
                                    "valueCoding": {
                                        "system": "https://fhir.kbv.de/CodeSystem/KBV_CS_ERP_StatusCoPayment",
                                        "code": "2"
                                    }
                                },
                                {
                                    "url": "https://fhir.kbv.de/StructureDefinition/KBV_EX_ERP_EmergencyServicesFee",
                                    "valueBoolean": false
                                },
                                {
                                    "url": "https://fhir.kbv.de/StructureDefinition/KBV_EX_ERP_BVG",
                                    "valueBoolean": true
                                },
                                {
                                    "url": "https://fhir.kbv.de/StructureDefinition/KBV_EX_ERP_Accident",
                                    "extension": [
                                        {
                                            "url": "unfallkennzeichen",
                                            "valueCoding": {
                                                "system": "https://fhir.kbv.de/CodeSystem/KBV_CS_FOR_Ursache_Type",
                                                "code": "2"
                                            }
                                        },
                                        {
                                            "url": "unfallbetrieb",
                                            "valueString": "Dummy-Betrieb"
                                        },
                                        {
                                            "url": "unfalltag",
                                            "valueDate": "2020-05-01"
                                        }
                                    ]
                                },
                                {
                                    "url": "https://fhir.kbv.de/StructureDefinition/KBV_EX_ERP_Multiple_Prescription",
                                    "extension": [
                                        {
                                            "url": "Kennzeichen",
                                            "valueBoolean": true
                                        },
                                        {
                                            "url": "Nummerierung",
                                            "valueRatio": {
                                                "numerator": {
                                                    "value": 2
                                                },
                                                "denominator": {
                                                    "value": 4
                                                }
                                            }
                                        },
                                        {
                                            "url": "Zeitraum",
                                            "valuePeriod": {
                                                "start": "2021-01-02",
                                                "end": "2021-03-30"
                                            }
                                        }
                                    ]
                                }
                            ],
                            "status": "active",
                            "intent": "order",
                            "medicationReference": {
                                "reference": "Medication/5fe6e06c-8725-46d5-aecd-e65e041ca3de"
                            },
                            "subject": {
                                "reference": "Patient/9774f67f-a238-4daf-b4e6-679deeef3811"
                            },
                            "authoredOn": "2020-02-03T00:00:00+00:00",
                            "requester": {
                                "reference": "Practitioner/20597e0e-cb2a-45b3-95f0-dc3dbdb617c3"
                            },
                            "insurance": [
                                {
                                    "reference": "Coverage/1b1ffb6e-eb05-43d7-87eb-e7818fe9661a"
                                }
                            ],
                            "dosageInstruction": [
                                {
                                    "extension": [
                                        {
                                            "url": "https://fhir.kbv.de/StructureDefinition/KBV_EX_ERP_DosageFlag",
                                            "valueBoolean": true
                                        }
                                    ],
                                    "text": "1-0-1-0"
                                }
                            ],
                            "dispenseRequest": {
                                "quantity": {
                                    "value": 1,
                                    "system": "http://unitsofmeasure.org",
                                    "code": "{Package}"
                                }
                            },
                            "substitution": {
                                "allowedBoolean": true
                            }
                        }
                    },
                    {
                        "fullUrl": "http://pvs.praxis-topp-gluecklich.local/fhir/Medication/5fe6e06c-8725-46d5-aecd-e65e041ca3de",
                        "resource": {
                            "resourceType": "Medication",
                            "id": "5fe6e06c-8725-46d5-aecd-e65e041ca3de",
                            "meta": {
                                "profile": [
                                    "https://fhir.kbv.de/StructureDefinition/KBV_PR_ERP_Medication_PZN|1.0.2"
                                ]
                            },
                            "extension": [
                                {
                                    "url": "https://fhir.kbv.de/StructureDefinition/KBV_EX_ERP_Medication_Category",
                                    "valueCoding": {
                                        "system": "https://fhir.kbv.de/CodeSystem/KBV_CS_ERP_Medication_Category",
                                        "code": "00"
                                    }
                                },
                                {
                                    "url": "https://fhir.kbv.de/StructureDefinition/KBV_EX_ERP_Medication_Vaccine",
                                    "valueBoolean": false
                                },
                                {
                                    "url": "http://fhir.de/StructureDefinition/normgroesse",
                                    "valueCode": "N1"
                                }
                            ],
                            "code": {
                                "coding": [
                                    {
                                        "system": "http://fhir.de/CodeSystem/ifa/pzn",
                                        "code": "06313728"
                                    }
                                ],
                                "text": "Sumatriptan-1a Pharma 100 mg Tabletten"
                            },
                            "form": {
                                "coding": [
                                    {
                                        "system": "https://fhir.kbv.de/CodeSystem/KBV_CS_SFHIR_KBV_DARREICHUNGSFORM",
                                        "code": "TAB"
                                    }
                                ]
                            },
                            "amount": {
                                "numerator": {
                                    "value": 12,
                                    "unit": "TAB",
                                    "system": "http://unitsofmeasure.org",
                                    "code": "{tbl}"
                                },
                                "denominator": {
                                    "value": 1
                                }
                            },
                            "batch": {
                                "lotNumber": "1234567890abcde",
                                "expirationDate": "2020-02-03T00:00:00+00:00"
                            }
                        }
                    },
                    {
                        "fullUrl": "http://pvs.praxis-topp-gluecklich.local/fhir/Patient/9774f67f-a238-4daf-b4e6-679deeef3811",
                        "resource": {
                            "resourceType": "Patient",
                            "id": "9774f67f-a238-4daf-b4e6-679deeef3811",
                            "meta": {
                                "profile": [
                                    "https://fhir.kbv.de/StructureDefinition/KBV_PR_FOR_Patient|1.0.3"
                                ]
                            },
                            "identifier": [
                                {
                                    "type": {
                                        "coding": [
                                            {
                                                "system": "http://fhir.de/CodeSystem/identifier-type-de-basis",
                                                "code": "GKV"
                                            }
                                        ]
                                    },
                                    "system": "http://fhir.de/NamingSystem/gkv/kvid-10",
                                    "value": "X234567890"
                                }
                            ],
                            "name": [
                                {
                                    "use": "official",
                                    "family": "Ludger Königsstein",
                                    "_family": {
                                        "extension": [
                                            {
                                                "url": "http://hl7.org/fhir/StructureDefinition/humanname-own-name",
                                                "valueString": "Königsstein"
                                            }
                                        ]
                                    },
                                    "given": [
                                        "Ludger"
                                    ]
                                }
                            ],
                            "birthDate": "1935-06-22",
                            "address": [
                                {
                                    "type": "both",
                                    "line": [
                                        "Musterstr. 1"
                                    ],
                                    "_line": [
                                        {
                                            "extension": [
                                                {
                                                    "url": "http://hl7.org/fhir/StructureDefinition/iso21090-ADXP-streetName",
                                                    "valueString": "Musterstr."
                                                },
                                                {
                                                    "url": "http://hl7.org/fhir/StructureDefinition/iso21090-ADXP-houseNumber",
                                                    "valueString": "1"
                                                }
                                            ]
                                        }
                                    ],
                                    "city": "Berlin",
                                    "postalCode": "10623"
                                }
                            ]
                        }
                    },
                    {
                        "fullUrl": "http://pvs.praxis-topp-gluecklich.local/fhir/Practitioner/20597e0e-cb2a-45b3-95f0-dc3dbdb617c3",
                        "resource": {
                            "resourceType": "Practitioner",
                            "id": "20597e0e-cb2a-45b3-95f0-dc3dbdb617c3",
                            "meta": {
                                "profile": [
                                    "https://fhir.kbv.de/StructureDefinition/KBV_PR_FOR_Practitioner|1.0.3"
                                ]
                            },
                            "identifier": [
                                {
                                    "type": {
                                        "coding": [
                                            {
                                                "system": "http://terminology.hl7.org/CodeSystem/v2-0203",
                                                "code": "LANR"
                                            }
                                        ]
                                    },
                                    "system": "https://fhir.kbv.de/NamingSystem/KBV_NS_Base_ANR",
                                    "value": "838382202"
                                }
                            ],
                            "name": [
                                {
                                    "use": "official",
                                    "family": "Topp-Glücklich",
                                    "_family": {
                                        "extension": [
                                            {
                                                "url": "http://hl7.org/fhir/StructureDefinition/humanname-own-name",
                                                "valueString": "Topp-Glücklich"
                                            }
                                        ]
                                    },
                                    "given": [
                                        "Hans"
                                    ],
                                    "prefix": [
                                        "Dr. med."
                                    ],
                                    "_prefix": [
                                        {
                                            "extension": [
                                                {
                                                    "url": "http://hl7.org/fhir/StructureDefinition/iso21090-EN-qualifier",
                                                    "valueCode": "AC"
                                                }
                                            ]
                                        }
                                    ]
                                }
                            ],
                            "qualification": [
                                {
                                    "code": {
                                        "coding": [
                                            {
                                                "system": "https://fhir.kbv.de/CodeSystem/KBV_CS_FOR_Qualification_Type",
                                                "code": "00"
                                            }
                                        ]
                                    }
                                },
                                {
                                    "code": {
                                        "text": "Hausarzt"
                                    }
                                }
                            ]
                        }
                    },
                    {
                        "fullUrl": "http://pvs.praxis-topp-gluecklich.local/fhir/Organization/cf042e44-086a-4d51-9c77-172f9a972e3b",
                        "resource": {
                            "resourceType": "Organization",
                            "id": "cf042e44-086a-4d51-9c77-172f9a972e3b",
                            "meta": {
                                "profile": [
                                    "https://fhir.kbv.de/StructureDefinition/KBV_PR_FOR_Organization|1.0.3"
                                ]
                            },
                            "identifier": [
                                {
                                    "type": {
                                        "coding": [
                                            {
                                                "system": "http://terminology.hl7.org/CodeSystem/v2-0203",
                                                "code": "BSNR"
                                            }
                                        ]
                                    },
                                    "system": "https://fhir.kbv.de/NamingSystem/KBV_NS_Base_BSNR",
                                    "value": "031234567"
                                }
                            ],
                            "name": "Hausarztpraxis Dr. Topp-Glücklich",
                            "telecom": [
                                {
                                    "system": "phone",
                                    "value": "0301234567"
                                }
                            ],
                            "address": [
                                {
                                    "type": "both",
                                    "line": [
                                        "Musterstr. 2"
                                    ],
                                    "_line": [
                                        {
                                            "extension": [
                                                {
                                                    "url": "http://hl7.org/fhir/StructureDefinition/iso21090-ADXP-streetName",
                                                    "valueString": "Musterstr."
                                                },
                                                {
                                                    "url": "http://hl7.org/fhir/StructureDefinition/iso21090-ADXP-houseNumber",
                                                    "valueString": "2"
                                                }
                                            ]
                                        }
                                    ],
                                    "city": "Berlin",
                                    "postalCode": "10623"
                                }
                            ]
                        }
                    },
                    {
                        "fullUrl": "http://pvs.praxis-topp-gluecklich.local/fhir/Coverage/1b1ffb6e-eb05-43d7-87eb-e7818fe9661a",
                        "resource": {
                            "resourceType": "Coverage",
                            "id": "1b1ffb6e-eb05-43d7-87eb-e7818fe9661a",
                            "meta": {
                                "profile": [
                                    "https://fhir.kbv.de/StructureDefinition/KBV_PR_FOR_Coverage|1.0.3"
                                ]
                            },
                            "extension": [
                                {
                                    "url": "http://fhir.de/StructureDefinition/gkv/besondere-personengruppe",
                                    "valueCoding": {
                                        "system": "https://fhir.kbv.de/CodeSystem/KBV_CS_SFHIR_KBV_PERSONENGRUPPE",
                                        "code": "00"
                                    }
                                },
                                {
                                    "url": "http://fhir.de/StructureDefinition/gkv/dmp-kennzeichen",
                                    "valueCoding": {
                                        "system": "https://fhir.kbv.de/CodeSystem/KBV_CS_SFHIR_KBV_DMP",
                                        "code": "00"
                                    }
                                },
                                {
                                    "url": "http://fhir.de/StructureDefinition/gkv/versichertenart",
                                    "valueCoding": {
                                        "system": "https://fhir.kbv.de/CodeSystem/KBV_CS_SFHIR_KBV_VERSICHERTENSTATUS",
                                        "code": "1"
                                    }
                                },
                                {
                                    "url": "http://fhir.de/StructureDefinition/gkv/wop",
                                    "valueCoding": {
                                        "system": "https://fhir.kbv.de/CodeSystem/KBV_CS_SFHIR_ITA_WOP",
                                        "code": "03"
                                    }
                                }
                            ],
                            "status": "active",
                            "type": {
                                "coding": [
                                    {
                                        "system": "http://fhir.de/CodeSystem/versicherungsart-de-basis",
                                        "code": "GKV"
                                    }
                                ]
                            },
                            "beneficiary": {
                                "reference": "Patient/9774f67f-a238-4daf-b4e6-679deeef3811"
                            },
                            "payor": [
                                {
                                    "identifier": {
                                        "system": "http://fhir.de/NamingSystem/arge-ik/iknr",
                                        "value": "104212059"
                                    },
                                    "display": "AOK Rheinland/Hamburg"
                                }
                            ]
                        }
                    },
                    {
                        "fullUrl": "http://pvs.praxis-topp-gluecklich.local/fhir/PractitionerRole/9a4090f8-8c5a-11ea-bc55-0242ac13000",
                        "resource": {
                            "resourceType": "PractitionerRole",
                            "id": "9a4090f8-8c5a-11ea-bc55-0242ac13000",
                            "meta": {
                                "profile": [
                                    "https://fhir.kbv.de/StructureDefinition/KBV_PR_FOR_PractitionerRole|1.0.3"
                                ]
                            },
                            "practitioner": {
                                "reference": "Practitioner/20597e0e-cb2a-45b3-95f0-dc3dbdb617c3"
                            },
                            "organization": {
                                "identifier": {
                                    "system": "http://fhir.de/NamingSystem/asv/teamnummer",
                                    "value": "003456789"
                                }
                            }
                        }
                    }
                ],
                "signature": {
                    "type": [
                        {
                            "system": "urn:iso-astm:E1762-95:2013",
                            "code": "1.2.840.10065.1.12.1.1",
                            "display": "Author's Signature"
                        }
                    ],
                    "when": "2021-03-24T08:35:32.529189321+00:00",
                    "who": {
                        "reference": "Device/software"
                    },
                    "targetFormat": "application/fhir+json",
                    "sigFormat": "application/jose",
                    "data": "..BCAO6HLKb0LJlLDjg-KTMinIRN3bP1cKN21nDzAu5H4OPnJRlyNW6J10ahur9-RVWQLlNvJBTOCpFnLe_yC-rg"
                }
            }
        }
    ]
}
